dTime_IMU(ms),Acc X[mg],Acc Y[mg],Acc Z[mg],Gyr X[mdps],Gyr Y[mdps],Gyr Z[mdps],Time_GPS(ms),Lat(degrees*10^-7),Long(degrees*10^-7),Alt(mm),SIV
12558,-848,-357,-586,21560,-1330,-140
,,,,,,,12882,353628589,-1208698623,-30858,21
13059,-840,-346,-540,14070,-3920,-21420
13560,-733,-333,-493,-18480,490,14770
,,,,,,,13877,353628592,-1208698631,-30802,20
14061,-847,-328,-532,11760,5320,4760
14562,-861,-328,-603,-5950,-3710,4270
,,,,,,,14895,353628584,-1208698633,-30687,18
15063,-807,-314,-469,26320,-24920,-17290
15564,-615,-398,-317,28700,-28070,-69510
,,,,,,,15884,353628553,-1208698626,-30577,20
16065,-434,-522,-243,7140,14770,15470
16566,-358,-303,-110,7070,11200,30730
,,,,,,,16889,353628558,-1208698636,-30314,23
17067,-478,-223,-180,23100,-3220,32620
17568,-791,146,-349,7630,23940,-6370
,,,,,,,17890,353628546,-1208698659,-30096,22
18069,-1012,5,-474,6720,4690,-7070
18570,-907,-89,-653,-27860,840,-840
,,,,,,,18894,353628541,-1208698686,-30262,23
19071,-933,-70,-528,1540,-12250,9170
19572,-921,-27,-616,-1260,4060,5670
,,,,,,,19896,353628530,-1208698699,-30232,23
20073,-934,-53,-637,24220,-350,-6720
20574,-954,-4,-733,13930,7280,15890
,,,,,,,20899,353628518,-1208698724,-30136,23
21075,-968,72,-706,-14000,4830,10290
21576,-971,132,-810,-23660,2240,5530
,,,,,,,21913,353628503,-1208698732,-30018,22
22077,-912,350,-1068,-28070,-16030,-28840
22578,-875,304,-946,14700,-1960,4830
,,,,,,,22904,353628503,-1208698722,-29899,22
23079,-960,331,-955,-7350,-7630,5320
23580,-1042,328,-1031,-20510,350,4130
,,,,,,,23914,353628509,-1208698729,-29660,23
24081,-929,327,-1011,-2520,-3640,-2240
24582,-933,241,-1009,2380,2660,2520
,,,,,,,24912,353628510,-1208698727,-29475,23
25083,-925,322,-1012,1120,-1470,-1540
25584,-948,312,-1034,-7980,-4270,-2310
,,,,,,,25919,353628513,-1208698715,-29326,23
26085,-934,293,-1003,3920,5740,-2170
26586,-972,312,-1097,6580,1400,5810
,,,,,,,26913,353628514,-1208698702,-29243,23
27087,-950,338,-1056,-3640,-7350,-1050
27588,-931,297,-1059,5810,280,210
,,,,,,,27930,353628514,-1208698690,-29116,24
28089,-931,324,-1059,-210,-1610,-910
28590,-949,299,-1053,3990,-1610,1750
,,,,,,,28922,353628514,-1208698680,-29007,24
29091,-960,311,-1071,350,210,-770
29592,-955,296,-1098,-2310,-980,2240
,,,,,,,29934,353628512,-1208698671,-29040,24
30093,-915,268,-1105,420,-9590,9380
30594,-1013,297,-1113,1050,4410,3360
,,,,,,,30927,353628513,-1208698666,-29106,23
31095,-922,310,-1193,-4830,630,1120
31596,-921,330,-1159,2800,-4900,-1680
,,,,,,,31929,353628514,-1208698659,-29195,23
32097,-931,332,-1141,7630,14770,3430
32598,-965,343,-1135,980,-15960,3780
,,,,,,,32933,353628508,-1208698647,-29317,23
33099,-971,326,-1018,53130,-8470,29050
33600,-1008,304,-1081,-6580,32340,-4690
,,,,,,,33936,353628507,-1208698640,-29288,22
34101,-857,405,-1105,-24990,-3290,-5040
34602,-1020,396,-951,-14630,11550,3430
,,,,,,,34937,353628511,-1208698633,-29270,22
35103,-830,454,-933,12670,37030,1260
35604,-897,460,-1045,-1120,-22890,-5180
,,,,,,,35940,353628515,-1208698628,-29326,22
36105,-870,463,-1005,16940,13440,-910
36606,-885,428,-991,1820,-37660,1680
,,,,,,,36943,353628518,-1208698622,-29396,23
37107,-945,374,-1033,-16800,19390,1470
37608,-907,427,-1173,-3640,-2590,-3430
,,,,,,,37946,353628522,-1208698618,-29450,23
38109,-888,433,-1138,3570,-11620,-6230
38610,-889,460,-1001,350,11060,-3360
,,,,,,,38948,353628522,-1208698615,-29525,22
39111,-889,462,-964,-2170,7770,-2030
39612,-910,404,-994,3920,7140,-980
,,,,,,,39951,353628519,-1208698613,-29693,24
40113,-933,354,-1064,-280,-420,-2170
40614,-921,373,-1029,22890,13370,1540
,,,,,,,40954,353628518,-1208698611,-29783,24
41115,-891,426,-1064,7140,4690,1610
41616,-908,397,-1127,4130,-4270,-630
,,,,,,,41956,353628518,-1208698607,-29804,24
42117,-911,455,-1030,-8540,1260,5880
42618,-855,477,-1037,1890,-1190,2940
,,,,,,,42960,353628518,-1208698606,-29858,24
43119,-867,513,-1054,-5320,490,-1120
43620,-906,473,-1030,-6090,-19600,-1750
,,,,,,,43962,353628519,-1208698603,-29859,24
44121,-887,391,-1164,-20790,-23030,-14980
44622,-854,523,-1069,-10290,-11900,-5250
,,,,,,,44965,353628518,-1208698601,-29917,24
45123,-934,348,-1109,-23450,-13440,-15470
45624,-885,432,-1087,12180,15540,3010
,,,,,,,45968,353628517,-1208698598,-29939,24
46125,-870,403,-1042,8890,-14350,4060
46626,-891,420,-1056,-2800,-6160,-15680
,,,,,,,46972,353628514,-1208698601,-30027,25
47127,-944,373,-1144,280,2310,-8330
47628,-932,348,-1127,13300,6020,-4620
,,,,,,,47971,353628512,-1208698599,-30047,25
48129,-946,283,-1141,5460,-28210,770
48630,-928,343,-1069,560,16940,0
,,,,,,,48980,353628512,-1208698601,-30054,25
49131,-942,278,-1068,1960,-16520,2730
49632,-945,299,-1108,-700,-12600,140
,,,,,,,49976,353628514,-1208698601,-30056,25
50133,-973,252,-1149,-3080,-3360,-5040
50634,-985,264,-1119,6020,6160,1750
,,,,,,,50978,353628517,-1208698601,-30028,25
51135,-950,273,-1135,-210,-5040,2800
51636,-1004,197,-1157,7630,-1680,-3990
,,,,,,,51983,353628519,-1208698601,-30014,25
52137,-962,238,-1074,2800,8120,-3220
52638,-981,225,-1150,-3920,-9660,1610
,,,,,,,52987,353628521,-1208698601,-30018,25
53139,-979,266,-1050,2030,7210,-3430
53640,-993,176,-1151,10850,39480,5180
,,,,,,,53990,353628521,-1208698600,-30043,25
54141,-981,247,-1083,4130,-13300,2030
54642,-955,276,-1034,3640,23450,-770
,,,,,,,54995,353628520,-1208698600,-30078,25
55143,-953,238,-1120,3430,-840,-5040
55644,-968,242,-994,700,-22400,1750
,,,,,,,55995,353628518,-1208698600,-30109,25
56145,-996,217,-991,6090,33950,-1120
56646,-999,240,-987,-1610,-31290,5670
,,,,,,,57000,353628515,-1208698601,-30100,25
57147,-954,231,-1002,-13650,4690,23100
57648,-912,333,-1112,-1190,1540,-2520
,,,,,,,58003,353628516,-1208698601,-30102,25
58149,-954,376,-1068,-3080,-19670,6510
58650,-932,397,-1045,770,6860,-4340
,,,,,,,59007,353628516,-1208698601,-30110,25
59151,-920,403,-1077,-840,-5250,-70
59652,-931,363,-1106,1750,0,-2520
,,,,,,,60007,353628516,-1208698603,-30129,25
60153,-898,407,-1081,-2870,-2380,-5670
60654,-968,323,-1147,-22190,11060,-7630
,,,,,,,61010,353628517,-1208698602,-30149,25
61155,-894,449,-1112,-17290,-40180,4900
61656,-934,435,-1057,-5040,7700,-910
,,,,,,,62015,353628524,-1208698601,-30183,25
62157,-907,388,-1109,3010,11060,-2450
62658,-1071,263,-1252,10850,10430,-4340
,,,,,,,63016,353628518,-1208698596,-30248,25
63159,-1046,301,-1106,1120,2030,-630
63660,-914,351,-1233,-57120,5810,-6860
,,,,,,,64016,353628506,-1208698598,-30247,24
64161,-878,365,-1296,-40530,13300,-10430
64662,-906,367,-1251,7140,2240,5600
,,,,,,,65020,353628503,-1208698597,-30236,25
65163,-875,426,-1172,11410,-17220,1540
65664,-914,391,-1226,8680,-13020,490
,,,,,,,66019,353628505,-1208698596,-30222,23
66165,-957,345,-1181,1330,-4550,1820
66666,-913,378,-1128,910,1190,-2520
,,,,,,,67024,353628504,-1208698597,-30217,24
67167,-915,336,-1182,-350,-6090,-3640
67668,-919,355,-1228,-6790,-10570,1680
,,,,,,,68027,353628508,-1208698597,-30178,25
68169,-867,404,-967,-630,18690,1260
68670,-906,395,-1228,-6860,6230,-630
,,,,,,,69029,353628511,-1208698597,-30140,25
69171,-902,336,-1265,-2240,3080,-490
69672,-940,345,-1211,-2240,-630,-2940
,,,,,,,70032,353628514,-1208698598,-30118,25
70173,-923,361,-1128,1820,-4480,700
70674,-924,349,-1175,-140,3920,1610
,,,,,,,71034,353628513,-1208698599,-30107,25
71175,-937,372,-1157,3710,-11690,1820
71676,-908,379,-1131,-3080,6230,70
,,,,,,,72035,353628513,-1208698600,-30087,24
72177,-904,398,-1128,70,-2730,3500
72678,-883,394,-1156,-2450,-3220,140
,,,,,,,73036,353628514,-1208698598,-30069,24
73179,-901,399,-1167,-1330,-1540,490
73680,-875,437,-1071,1540,-2590,1540
,,,,,,,74039,353628516,-1208698598,-30053,23
74181,-891,414,-1107,5320,-5740,3290
74682,-894,403,-1141,1050,-5250,420
,,,,,,,75042,353628518,-1208698602,-30068,23
75183,-893,430,-1121,2310,-2310,-770
75684,-905,404,-1119,5810,-5530,1750
,,,,,,,76044,353628520,-1208698604,-30052,23
76185,-903,412,-1108,3080,-8680,-490
76686,-907,399,-1135,1890,-3430,1400
,,,,,,,77050,353628521,-1208698605,-30036,23
77187,-911,349,-1156,-6230,3220,-3710
77688,-905,388,-1146,-980,-630,1050
,,,,,,,78052,353628520,-1208698607,-30074,24
78189,-907,420,-1131,8330,-3360,1750
78690,-903,411,-1094,-4760,7630,-2660
,,,,,,,79056,353628521,-1208698608,-30074,25
79191,-915,422,-1099,-560,-5880,-1330
79692,-910,421,-1115,10220,-6580,2450
,,,,,,,80058,353628524,-1208698606,-30009,25
80193,-906,422,-1026,2240,1120,-2240
80694,-892,387,-1134,4620,-18620,-420
,,,,,,,81061,353628525,-1208698604,-29969,24
81195,-919,365,-1076,-3990,3360,1190
81696,-940,378,-1094,-1960,350,1330
,,,,,,,82064,353628526,-1208698604,-29937,24
82197,-918,371,-1112,1820,-3150,1890
82698,-917,401,-1114,6930,-6440,1330
,,,,,,,83066,353628528,-1208698605,-29903,24
83199,-958,361,-1166,3500,420,700
83700,-916,376,-1158,19250,-1400,10080
,,,,,,,84068,353628531,-1208698600,-29846,23
84201,-933,401,-1040,11060,-28980,10010
84702,-894,502,-1104,-15260,14140,1190
,,,,,,,85071,353628533,-1208698600,-29791,24
85203,-934,345,-1468,-22330,12110,-24080
85704,-994,365,-1170,23170,5390,24010
,,,,,,,86074,353628532,-1208698599,-29754,24
86205,-893,438,-1172,3780,-4900,490
86706,-911,337,-1143,4970,-17710,4830
,,,,,,,87076,353628531,-1208698598,-29726,24
87207,-878,416,-1139,-420,3220,-8610
87708,-917,397,-1146,-420,31500,-6510
,,,,,,,88079,353628530,-1208698595,-29733,24
88209,-908,384,-1146,-2800,2240,-7980
88710,-916,408,-1108,3290,3150,3360
,,,,,,,89082,353628529,-1208698594,-29711,24
89211,-914,397,-1180,4830,3360,-12040
89712,-939,335,-1152,0,-8680,-350
,,,,,,,90083,353628529,-1208698599,-29737,23
90213,-931,391,-1025,3150,-12390,11410
90714,-915,413,-1055,-490,-31220,1960
,,,,,,,91085,353628529,-1208698599,-29719,23
91215,-909,332,-1208,-9730,9730,-6020
91716,-883,375,-1158,11550,3780,1890
,,,,,,,92089,353628527,-1208698597,-29698,23
92217,-929,374,-1090,-2170,-5040,2520
92718,-934,393,-1246,1820,6510,-910
,,,,,,,93093,353628527,-1208698596,-29672,23
93219,-929,332,-1152,-5950,-12950,-3360
93720,-932,363,-1178,-2240,-16520,210
,,,,,,,94097,353628527,-1208698599,-29657,24
94221,-913,387,-1139,-6090,-15890,-2590
94722,-946,372,-1180,-10990,-43050,3780
,,,,,,,95098,353628530,-1208698598,-29594,23
95223,-846,440,-1077,-8750,-1610,4130
95724,-1014,492,-1175,-1610,10220,280
,,,,,,,96100,353628527,-1208698598,-29554,23
96225,-915,382,-1057,10150,-2730,7560
96726,-889,432,-1166,-5320,15610,-3360
,,,,,,,97101,353628526,-1208698599,-29537,23
97227,-881,444,-1122,4340,-25480,4620
97728,-875,468,-1157,-2940,490,-4900
,,,,,,,98103,353628527,-1208698603,-29551,24
98229,-896,439,-1209,7420,1540,2590
98730,-901,426,-1142,6020,-2520,-1400
,,,,,,,99105,353628526,-1208698600,-29524,24
99231,-920,420,-1147,-7350,-21910,-5390
99732,-988,447,-1053,3010,14770,-3570
,,,,,,,100108,353628530,-1208698595,-29483,24
100233,-854,449,-1048,1680,10570,-70
100734,-964,379,-1063,7560,-20930,2030
,,,,,,,101113,353628527,-1208698589,-29480,24
101235,-892,469,-1058,3570,-18690,490
101736,-883,386,-1059,4410,-40320,-1680
,,,,,,,102117,353628527,-1208698585,-29442,24
102237,-921,412,-1032,-2380,-24080,490
102738,-915,373,-1115,-2450,-12040,-4830
,,,,,,,103120,353628526,-1208698584,-29413,25
103239,-926,413,-1048,-5110,-1050,-700
103740,-919,377,-1064,350,4200,2380
,,,,,,,104122,353628525,-1208698581,-29356,25
104241,-917,393,-1048,-1330,-5880,140
104742,-907,412,-1070,-350,9380,910
,,,,,,,105124,353628525,-1208698578,-29283,25
105243,-919,415,-1018,3780,10780,3150
105744,-923,366,-996,3850,2030,3640
,,,,,,,106129,353628525,-1208698577,-29230,24
106245,-919,443,-1006,5320,6090,-2310
106746,-923,381,-1038,10850,-11620,3640
,,,,,,,107129,353628524,-1208698575,-29153,23
107247,-924,392,-1001,10360,-10920,-2030
107748,-914,391,-998,5950,-12180,4760
,,,,,,,108131,353628523,-1208698573,-29077,23
108249,-865,437,-1132,10500,-1750,4130
108750,-919,386,-1032,18480,15960,5530
,,,,,,,109134,353628522,-1208698574,-29036,23
109251,-950,379,-1133,14630,-29540,420
109752,-772,343,-1113,-24570,14070,-10290
,,,,,,,110136,353628511,-1208698589,-29117,22
110253,-807,419,-1214,14070,-21630,13020
110754,-1088,305,-1196,5390,33110,-26320
,,,,,,,111135,353628531,-1208698610,-29294,19
111255,-1046,12,-1168,81060,-21140,27720
111756,-933,712,-1377,-27440,-56560,-55720
,,,,,,,112138,353628536,-1208698616,-29876,20
112257,-885,79,-1351,1750,-1820,-9520
112758,-928,-6,-1457,4760,-5390,70
,,,,,,,113144,353628533,-1208698622,-29882,22
113259,-1018,318,-1383,-47250,-52920,49490
113760,-1715,553,-1230,18830,211190,43330
,,,,,,,114149,353628530,-1208698627,-29897,23
114261,-1362,207,-620,1400,-91840,-10570
114762,-658,589,-416,15960,-51170,-37310
,,,,,,,115152,353628529,-1208698628,-29936,24
115263,-469,726,-748,26670,-82670,-5810
115764,-491,914,-425,19460,-96810,4480
,,,,,,,116155,353628534,-1208698628,-29917,25
116265,-344,856,-532,17430,-1960,-2590
116766,-584,717,-685,27580,1890,19390
,,,,,,,117157,353628538,-1208698625,-29939,24
117267,-603,673,-682,30170,3850,-2030
117768,-660,808,-479,-57470,26880,-28700
,,,,,,,118159,353628539,-1208698621,-29955,25
118269,-521,840,-778,-16450,-21210,12740
118770,-494,707,-437,-45290,2380,-1190
,,,,,,,119161,353628540,-1208698621,-29973,25
119271,-366,907,-921,-2590,5320,7840
119772,-330,915,-773,-15050,8190,6370
,,,,,,,120160,353628518,-1208698614,-29605,23
120273,-383,809,-609,-17150,1540,-8050
120774,-403,759,-618,-70,-7980,-16590
,,,,,,,121163,353628501,-1208698581,-29653,22
121275,-533,819,-708,39200,7490,3290
121776,-409,957,-723,14490,-18970,8540
,,,,,,,122162,353628497,-1208698565,-29699,22
122277,-423,897,-959,-4340,29330,-4900
122778,-500,938,-836,-12390,-42560,27020
,,,,,,,123168,353628505,-1208698572,-29971,23
123279,-264,952,-988,39200,-9940,10220
123780,-117,859,-1025,6020,-14910,17570
,,,,,,,124169,353628512,-1208698621,-29923,22
124281,-111,1226,-1100,52780,-34930,-86730
124782,-385,1143,-1419,-140840,-57050,31360
,,,,,,,125171,353628498,-1208698638,-29589,22
125283,-205,853,-646,-17710,16100,18060
125784,-346,887,-439,-18830,6300,-29400
,,,,,,,126176,353628491,-1208698599,-29847,21
126285,-248,632,-680,1120,16870,1680
126786,-497,785,-748,0,-16520,13160
,,,,,,,127180,353628491,-1208698584,-29940,23
127287,-244,949,-866,3150,-12390,-5950
127788,-340,867,-613,-17640,630,26880
,,,,,,,128179,353628508,-1208698639,-30799,21
128289,-339,941,-832,-11550,-30590,-13790
128790,-384,907,-782,-560,13510,-8400
,,,,,,,129185,353628528,-1208698652,-30763,21
129291,-624,677,-734,-28070,14630,3010
129792,-638,651,-618,-18550,8260,9380
,,,,,,,130190,353628532,-1208698652,-30799,25
130293,-800,509,-655,10780,31990,-13160
130794,-867,603,-882,28770,15750,-18760
,,,,,,,131191,353628535,-1208698659,-30836,25
131295,-725,605,-718,700,6720,-4480
131796,-838,564,-880,-8260,1680,6230
,,,,,,,132193,353628540,-1208698664,-30852,25
132297,-728,578,-885,-11690,9730,-3780
132798,-791,580,-744,-28980,8680,2170
,,,,,,,133198,353628544,-1208698668,-30861,25
133299,-761,576,-788,-19320,5880,1190
133800,-725,648,-817,26040,10640,20510
,,,,,,,134200,353628548,-1208698673,-30911,25
134301,-740,676,-843,22190,18550,350
134802,-804,572,-945,-38220,-18830,1540
,,,,,,,135202,353628552,-1208698676,-30934,25
135303,-770,652,-1099,-22750,-5250,-8330
135804,-747,623,-888,28700,-7210,0
,,,,,,,136205,353628556,-1208698678,-30957,25
136305,-699,699,-818,-7210,7350,24290
136806,-592,725,-645,4200,0,26740
,,,,,,,137205,353628559,-1208698681,-30995,25
137307,-690,785,-908,-18270,-5740,-5740
137808,-631,761,-716,-35420,15400,-2100
,,,,,,,138208,353628562,-1208698683,-31028,25
138309,-679,702,-792,28910,-19460,21420
138810,-714,695,-803,-1750,19740,-7210
,,,,,,,139211,353628564,-1208698685,-31058,25
139311,-647,754,-808,-7770,-20860,28000
139812,-634,767,-870,40740,-32900,-23170
,,,,,,,140213,353628567,-1208698687,-31085,25
140313,-644,730,-858,9520,-8820,700
140814,-624,735,-775,2800,6020,2030
,,,,,,,141216,353628570,-1208698689,-31116,25
141315,-662,747,-896,3710,10360,-280
141816,-643,749,-887,4480,-3010,-910
,,,,,,,142218,353628573,-1208698691,-31133,25
142317,-644,746,-889,-6020,-1260,-1820
142818,-660,739,-921,14420,-2100,-420
,,,,,,,143220,353628575,-1208698693,-31171,25
143319,-628,768,-925,-15470,770,-6720
143820,-657,728,-832,2520,6160,-770
,,,,,,,144225,353628576,-1208698693,-31183,25
144321,-687,693,-999,9100,-4760,24990
144822,-597,767,-857,1960,2730,-70
,,,,,,,145227,353628578,-1208698693,-31181,25
145323,-609,769,-805,-9240,19670,6370
145824,-585,774,-802,14000,-7420,9100
,,,,,,,146227,353628581,-1208698694,-31194,25
146325,-642,798,-918,-3220,350,-7070
146826,-665,709,-850,17710,-12320,-2310
,,,,,,,147229,353628582,-1208698695,-31210,25
147327,-641,746,-855,1680,-420,420
147828,-641,732,-762,3710,-3150,1960
,,,,,,,148231,353628583,-1208698696,-31228,25
148329,-665,720,-925,-10640,5390,3150
148830,-625,769,-813,-8050,-4270,3710
,,,,,,,149233,353628585,-1208698697,-31248,25
149331,-678,676,-884,6230,-4060,3010
149832,-656,754,-834,1960,-6790,2800
,,,,,,,150238,353628586,-1208698698,-31273,25
150333,-641,758,-785,5740,-8260,1960
150834,-637,733,-758,-10710,11340,4340
,,,,,,,151243,353628588,-1208698698,-31273,25
151335,-637,737,-835,-8610,1260,-2660
151836,-703,681,-814,-14280,6230,1190
,,,,,,,152244,353628589,-1208698699,-31276,25
152337,-631,720,-755,8330,-10220,5740
152838,-671,729,-935,8610,-1120,490
,,,,,,,153245,353628590,-1208698698,-31273,24
153339,-601,758,-622,16520,34930,35070
153840,-807,457,-789,20860,-20580,14280
,,,,,,,154248,353628591,-1208698698,-31278,24
154341,-825,572,-843,1190,5950,-2660
154842,-793,566,-764,-8470,-9170,10290
,,,,,,,155253,353628592,-1208698698,-31271,24
155343,-733,631,-825,-19250,14280,-4060
155844,-751,621,-802,2870,3570,2380
,,,,,,,156255,353628593,-1208698698,-31280,24
156345,-770,614,-794,-6580,3570,3080
156846,-765,648,-845,-6090,-12040,-2310
,,,,,,,157258,353628594,-1208698698,-31274,24
157347,-927,614,-775,-40250,33320,-8680
157848,-781,612,-826,-7770,-8820,-630
,,,,,,,158259,353628596,-1208698698,-31261,24
158349,-597,599,-805,-1890,18480,5110
158850,-754,654,-926,30170,-12180,560
,,,,,,,159262,353628597,-1208698698,-31241,24
159351,-834,538,-875,18550,910,5460
159852,-788,599,-828,10570,420,3850
,,,,,,,160263,353628598,-1208698698,-31218,24
160353,-777,612,-886,28490,3850,3290
160854,-748,643,-854,42210,-17500,-4620
,,,,,,,161265,353628599,-1208698699,-31232,24
161355,-725,674,-886,9030,-2170,280
161856,-678,714,-943,8680,-5810,-910
,,,,,,,162268,353628600,-1208698699,-31237,24
162357,-637,764,-868,19670,-12110,6020
162858,-563,809,-801,17220,10500,9100
,,,,,,,163272,353628601,-1208698699,-31274,24
163359,-583,767,-928,21070,-1190,1470
163860,-612,790,-934,1190,-6860,-1960
,,,,,,,164280,353628602,-1208698699,-31317,24
164361,-592,798,-988,4620,-5880,2170
164862,-559,839,-925,-4760,6930,-13230
,,,,,,,165277,353628603,-1208698699,-31317,24
165363,-616,820,-984,0,770,630
165864,-543,820,-877,2100,-700,-3290
,,,,,,,166281,353628604,-1208698698,-31309,24
166365,-475,820,-911,-2240,840,4200
166866,-502,833,-887,-6790,5880,-280
,,,,,,,167281,353628605,-1208698698,-31299,24
167367,-556,818,-797,-14490,8680,-12460
167868,-593,821,-836,-11760,5180,-4970
,,,,,,,168283,353628606,-1208698697,-31277,24
168369,-635,724,-873,-14070,6720,-1400
168870,-390,758,-971,30240,21560,27650
,,,,,,,169287,353628607,-1208698697,-31272,24
169371,-569,807,-975,-10010,6930,-350
169872,-560,819,-699,36470,-23800,2380
,,,,,,,170287,353628608,-1208698697,-31268,24
170373,-596,787,-828,10430,630,-70
170874,-576,803,-872,490,1890,-1890
,,,,,,,171288,353628609,-1208698697,-31267,25
171375,-635,771,-828,12180,-2450,140
171876,-648,721,-795,-16380,2030,-140
,,,,,,,172293,353628609,-1208698697,-31259,25
172377,-593,783,-890,-1260,-4340,3780
172878,-596,787,-730,-9870,13020,6230
,,,,,,,173293,353628610,-1208698696,-31250,25
173379,-622,758,-816,-23100,13650,5180
173880,-580,769,-810,280,-7770,-2870
,,,,,,,174292,353628609,-1208698696,-31258,22
174381,-566,702,-819,-2800,-4340,70
174882,-546,808,-775,8820,-3570,210
,,,,,,,175300,353628609,-1208698695,-31259,22
175383,-603,794,-810,-2660,-7280,3080
175884,-546,807,-806,-4200,10500,420
,,,,,,,176302,353628610,-1208698695,-31268,23
176385,-528,820,-768,5810,-8610,-7420
176886,-509,874,-906,-490,14700,8050
,,,,,,,177304,353628611,-1208698696,-31251,24
177387,-498,867,-817,28770,31640,14000
177888,-609,744,-746,13160,-15610,-40670
,,,,,,,178308,353628613,-1208698695,-31236,25
178389,-725,670,-1020,-11760,18060,7000
178890,-585,673,-715,-70140,6020,29960
,,,,,,,179311,353628614,-1208698694,-31224,25
179391,-697,753,-873,-17080,-19320,10220
179892,-764,702,-840,-46900,53270,11830
,,,,,,,180314,353628614,-1208698693,-31225,25
180393,-636,686,-830,23450,-18970,-13650
180894,-670,652,-835,40670,1890,4690
,,,,,,,181318,353628613,-1208698693,-31209,25
181395,-665,740,-992,27020,-6580,2310
181896,-634,790,-1304,-6090,560,1050
,,,,,,,182319,353628613,-1208698692,-31182,25
182397,-552,820,-1061,10360,-9940,-2240
